File: XrayData/Ag_xrd.xyd
20.000   55.8000
20.060   60.4000
20.120   59.2000
20.180   52.6000
20.240   53.0000
20.300   59.6000
20.360   55.2000
20.420   57.2000
20.480   51.4000
20.540   56.6000
20.600   56.2000
20.660   54.0000
20.720   56.2000
20.780   56.2000
20.840   55.8000
20.900   54.2000
20.960   54.8000
21.020   54.8000
21.080   53.8000
21.140   50.4000
21.200   53.6000
21.260   50.4000
21.320   48.2000
21.380   53.0000
21.440   54.8000
21.500   53.0000
21.560   53.4000
21.620   54.4000
21.680   50.8000
21.740   51.2000
21.800   52.0000
21.860   49.2000
21.920   47.2000
21.980   58.0000
22.040   54.0000
22.100   52.4000
22.160   48.6000
22.220   50.6000
22.280   49.4000
22.340   49.2000
22.400   53.8000
22.460   45.4000
22.520   49.2000
22.580   47.4000
22.640   44.8000
22.700   50.6000
22.760   46.4000
22.820   51.8000
22.880   47.0000
22.940   46.6000
23.000   45.8000
23.060   48.8000
23.120   49.4000
23.180   44.8000
23.240   45.6000
23.300   48.4000
23.360   40.6000
23.420   46.0000
23.480   40.8000
23.540   49.4000
23.600   43.4000
23.660   43.2000
23.720   45.4000
23.780   41.0000
23.840   42.2000
23.900   45.6000
23.960   47.0000
24.020   39.8000
24.080   43.8000
24.140   41.8000
24.200   39.4000
24.260   40.8000
24.320   45.2000
24.380   41.2000
24.440   38.2000
24.500   40.6000
24.560   42.2000
24.620   43.2000
24.680   41.6000
24.740   42.4000
24.800   43.0000
24.860   40.4000
24.920   39.6000
24.980   40.0000
25.040   40.4000
25.100   43.6000
25.160   41.2000
25.220   41.4000
25.280   38.0000
25.340   38.0000
25.400   38.4000
25.460   37.6000
25.520   42.0000
25.580   34.4000
25.640   38.2000
25.700   40.4000
25.760   36.8000
25.820   37.4000
25.880   35.4000
25.940   38.0000
26.000   36.4000
26.060   36.4000
26.120   32.4000
26.180   34.4000
26.240   36.6000
26.300   33.0000
26.360   39.6000
26.420   33.2000
26.480   31.8000
26.540   34.8000
26.600   35.0000
26.660   34.2000
26.720   37.2000
26.780   32.4000
26.840   35.8000
26.900   31.2000
26.960   30.0000
27.020   32.0000
27.080   32.6000
27.140   34.4000
27.200   31.4000
27.260   29.4000
27.320   32.0000
27.380   34.2000
27.440   28.8000
27.500   31.0000
27.560   34.8000
27.620   30.4000
27.680   35.2000
27.740   32.8000
27.800   33.4000
27.860   32.0000
27.920   33.8000
27.980   33.8000
28.040   29.8000
28.100   32.0000
28.160   28.6000
28.220   31.6000
28.280   31.6000
28.340   26.6000
28.400   36.8000
28.460   30.4000
28.520   33.4000
28.580   27.4000
28.640   27.8000
28.700   30.8000
28.760   26.2000
28.820   29.6000
28.880   27.8000
28.940   28.6000
29.000   28.6000
29.060   24.4000
29.120   30.8000
29.180   30.2000
29.240   28.4000
29.300   33.4000
29.360   28.4000
29.420   27.4000
29.480   26.2000
29.540   27.6000
29.600   29.6000
29.660   26.0000
29.720   26.6000
29.780   25.0000
29.840   31.2000
29.900   26.6000
29.960   27.6000
30.020   26.8000
30.080   26.8000
30.140   27.6000
30.200   28.6000
30.260   30.2000
30.320   27.2000
30.380   22.4000
30.440   27.6000
30.500   25.0000
30.560   27.2000
30.620   26.6000
30.680   28.4000
30.740   24.8000
30.800   26.2000
30.860   25.8000
30.920   25.4000
30.980   25.6000
31.040   21.2000
31.100   25.0000
31.160   23.8000
31.220   26.2000
31.280   23.8000
31.340   25.2000
31.400   22.2000
31.460   24.4000
31.520   23.2000
31.580   25.4000
31.640   22.0000
31.700   23.0000
31.760   25.6000
31.820   21.0000
31.880   25.0000
31.940   21.4000
32.000   26.0000
32.060   18.6000
32.120   25.8000
32.180   22.6000
32.240   26.6000
32.300   23.0000
32.360   20.8000
32.420   18.8000
32.480   22.4000
32.540   21.2000
32.600   21.8000
32.660   23.6000
32.720   24.0000
32.780   21.2000
32.840   22.6000
32.900   24.8000
32.960   23.2000
33.020   23.6000
33.080   22.6000
33.140   22.4000
33.200   20.2000
33.260   23.4000
33.320   23.0000
33.380   21.8000
33.440   22.8000
33.500   21.4000
33.560   22.6000
33.620   23.4000
33.680   22.4000
33.740   22.2000
33.800   21.0000
33.860   17.8000
33.920   23.2000
33.980   21.2000
34.040   24.0000
34.100   22.6000
34.160   21.6000
34.220   23.6000
34.280   21.0000
34.340   22.6000
34.400   23.0000
34.460   20.4000
34.520   21.8000
34.580   22.8000
34.640   22.0000
34.700   22.2000
34.760   20.0000
34.820   17.6000
34.880   20.8000
34.940   22.4000
35.000   20.6000
35.060   21.8000
35.120   23.0000
35.180   20.2000
35.240   23.6000
35.300   21.6000
35.360   24.2000
35.420   20.4000
35.480   24.8000
35.540   22.6000
35.600   20.6000
35.660   20.2000
35.720   22.2000
35.780   29.4000
35.840   23.6000
35.900   26.0000
35.960   23.8000
36.020   25.2000
36.080   25.2000
36.140   22.6000
36.200   24.2000
36.260   22.6000
36.320   21.8000
36.380   23.6000
36.440   22.0000
36.500   25.4000
36.560   25.4000
36.620   25.8000
36.680   24.6000
36.740   25.6000
36.800   25.4000
36.860   26.6000
36.920   26.6000
36.980   26.8000
37.040   31.6000
37.100   27.4000
37.160   27.0000
37.220   29.6000
37.280   33.6000
37.340   29.8000
37.400   38.6000
37.460   42.8000
37.520   46.6000
37.580   52.2000
37.640   70.8000
37.700   87.0000
37.760  105.2000
37.820  163.8000
37.880  242.8000
37.940  398.6000
38.000  563.0000
38.060  475.4000
38.120  292.2000
38.180  178.6000
38.240  120.6000
38.300   94.2000
38.360   71.0000
38.420   58.8000
38.480   54.0000
38.540   48.8000
38.600   42.8000
38.660   41.0000
38.720   36.6000
38.780   33.4000
38.840   31.8000
38.900   31.2000
38.960   29.8000
39.020   27.4000
39.080   27.2000
39.140   26.4000
39.200   25.6000
39.260   26.6000
39.320   26.4000
39.380   25.0000
39.440   23.6000
39.500   23.4000
39.560   24.8000
39.620   22.4000
39.680   23.2000
39.740   24.0000
39.800   20.6000
39.860   21.8000
39.920   21.2000
39.980   23.6000
40.040   22.0000
40.100   21.8000
40.160   22.6000
40.220   19.4000
40.280   21.8000
40.340   22.4000
40.400   23.0000
40.460   22.2000
40.520   21.0000
40.580   20.6000
40.640   16.6000
40.700   18.8000
40.760   20.4000
40.820   21.2000
40.880   22.2000
40.940   18.2000
41.000   20.8000
41.060   21.4000
41.120   19.2000
41.180   22.0000
41.240   20.8000
41.300   18.4000
41.360   21.8000
41.420   19.8000
41.480   19.8000
41.540   19.0000
41.600   20.2000
41.660   20.0000
41.720   17.6000
41.780   20.4000
41.840   19.4000
41.900   22.0000
41.960   18.0000
42.020   20.4000
42.080   19.4000
42.140   20.0000
42.200   19.6000
42.260   18.4000
42.320   21.2000
42.380   19.4000
42.440   19.8000
42.500   18.6000
42.560   20.6000
42.620   22.2000
42.680   20.6000
42.740   22.2000
42.800   22.0000
42.860   24.2000
42.920   23.6000
42.980   25.6000
43.040   23.0000
43.100   27.0000
43.160   25.4000
43.220   25.4000
43.280   26.0000
43.340   27.2000
43.400   25.6000
43.460   32.0000
43.520   31.8000
43.580   32.0000
43.640   37.0000
43.700   41.6000
43.760   43.0000
43.820   47.6000
43.880   55.4000
43.940   66.8000
44.000   87.0000
44.060  118.6000
44.120  140.6000
44.180  173.2000
44.240  158.2000
44.300  113.4000
44.360   80.4000
44.420   63.4000
44.480   52.6000
44.540   45.0000
44.600   37.8000
44.660   34.6000
44.720   25.2000
44.780   25.8000
44.840   26.4000
44.900   24.8000
44.960   21.6000
45.020   20.2000
45.080   18.6000
45.140   20.2000
45.200   19.8000
45.260   16.6000
45.320   18.2000
45.380   16.0000
45.440   15.2000
45.500   16.6000
45.560   19.0000
45.620   16.6000
45.680   17.2000
45.740   15.4000
45.800   16.0000
45.860   16.4000
45.920   13.2000
45.980   13.8000
46.040   15.4000
46.100   15.6000
46.160   15.4000
46.220   15.2000
46.280   16.4000
46.340   17.0000
46.400   17.0000
46.460   14.8000
46.520   15.8000
46.580   16.0000
46.640   14.6000
46.700   14.8000
46.760   16.2000
46.820   14.0000
46.880   13.8000
46.940   11.6000
47.000   15.8000
47.060   12.4000
47.120   11.8000
47.180   14.2000
47.240   14.6000
47.300   15.8000
47.360   13.6000
47.420   13.6000
47.480   12.2000
47.540   12.0000
47.600   14.2000
47.660   12.2000
47.720   12.4000
47.780   11.0000
47.840   11.4000
47.900   14.0000
47.960   16.0000
48.020   13.0000
48.080   13.6000
48.140   12.4000
48.200   15.4000
48.260   14.6000
48.320   12.4000
48.380   10.0000
48.440   11.6000
48.500   14.0000
48.560   14.8000
48.620   13.0000
48.680   12.8000
48.740   12.2000
48.800   11.2000
48.860   11.6000
48.920   15.2000
48.980   14.0000
49.040   11.2000
49.100   12.6000
49.160   10.8000
49.220    9.8000
49.280   11.0000
49.340   13.0000
49.400   13.4000
49.460   11.2000
49.520   10.0000
49.580   13.6000
49.640   11.8000
49.700   11.6000
49.760   14.2000
49.820   12.0000
49.880   10.6000
49.940   13.2000
50.000   11.0000
50.060   10.8000
50.120   11.8000
50.180   12.4000
50.240   11.8000
50.300   13.6000
50.360   14.8000
50.420   10.4000
50.480   11.8000
50.540   14.8000
50.600    8.6000
50.660    9.0000
50.720   11.0000
50.780   14.4000
50.840   12.4000
50.900   13.8000
50.960   11.0000
51.020   10.2000
51.080   11.6000
51.140   10.8000
51.200   12.0000
51.260   10.2000
51.320   10.8000
51.380   11.0000
51.440   10.6000
51.500    8.8000
51.560   11.0000
51.620   10.6000
51.680   10.6000
51.740   10.0000
51.800   10.6000
51.860    9.4000
51.920   12.0000
51.980   10.4000
52.040    8.4000
52.100   10.4000
52.160   10.0000
52.220   11.0000
52.280    9.6000
52.340   11.0000
52.400   12.4000
52.460    9.8000
52.520   10.8000
52.580    8.4000
52.640   10.0000
52.700    9.0000
52.760   11.2000
52.820    8.4000
52.880   11.0000
52.940   12.8000
53.000   12.4000
53.060   11.4000
53.120    9.0000
53.180    9.2000
53.240   11.4000
53.300   13.4000
53.360    9.8000
53.420   11.4000
53.480   11.4000
53.540   10.6000
53.600   12.0000
53.660   10.6000
53.720   10.2000
53.780    9.6000
53.840    8.8000
53.900   10.2000
53.960   11.4000
54.020    8.4000
54.080   10.2000
54.140    8.4000
54.200    9.2000
54.260   10.6000
54.320   10.4000
54.380   10.2000
54.440    9.4000
54.500    9.6000
54.560    9.2000
54.620    9.4000
54.680    9.6000
54.740   11.4000
54.800   10.8000
54.860    9.0000
54.920    9.4000
54.980    9.4000
55.040    7.2000
55.100    8.6000
55.160    9.8000
55.220    7.6000
55.280   12.4000
55.340    9.4000
55.400    9.0000
55.460    7.2000
55.520    9.4000
55.580    9.4000
55.640    8.8000
55.700    8.8000
55.760    8.0000
55.820    9.4000
55.880    8.6000
55.940   10.6000
56.000   10.4000
56.060    9.2000
56.120   10.6000
56.180   10.2000
56.240    8.8000
56.300   10.2000
56.360    9.8000
56.420    8.2000
56.480    8.2000
56.540    6.8000
56.600    8.4000
56.660    7.8000
56.720    7.4000
56.780    7.6000
56.840    8.4000
56.900    9.0000
56.960    9.0000
57.020    7.2000
57.080   10.0000
57.140    7.6000
57.200    7.6000
57.260    7.8000
57.320    9.8000
57.380   10.8000
57.440    8.6000
57.500    9.2000
57.560    9.4000
57.620   10.0000
57.680    7.8000
57.740    8.4000
57.800   10.6000
57.860   10.0000
57.920    8.6000
57.980    8.0000
58.040    7.8000
58.100    9.6000
58.160    7.4000
58.220    9.2000
58.280    9.2000
58.340    7.4000
58.400    9.6000
58.460    9.6000
58.520    7.2000
58.580    7.0000
58.640    7.8000
58.700    9.2000
58.760    8.8000
58.820    9.0000
58.880    6.2000
58.940    9.6000
59.000    8.2000
59.060    8.0000
59.120    9.0000
59.180    9.2000
59.240    8.2000
59.300    9.4000
59.360    7.0000
59.420    7.6000
59.480    8.8000
59.540   10.0000
59.600    9.2000
59.660    8.6000
59.720    6.6000
59.780    7.2000
59.840    8.8000
59.900    7.6000
59.960    9.4000
60.020    7.4000
60.080    7.4000
60.140    6.6000
60.200    9.0000
60.260    8.4000
60.320    8.6000
60.380    8.4000
60.440    7.8000
60.500    9.2000
60.560    8.8000
60.620    7.6000
60.680    9.8000
60.740    8.6000
60.800    8.8000
60.860    9.6000
60.920    7.0000
60.980    7.8000
61.040    8.6000
61.100    9.0000
61.160    9.2000
61.220   10.0000
61.280    7.2000
61.340    8.4000
61.400    7.8000
61.460    8.6000
61.520    7.4000
61.580    8.8000
61.640    7.6000
61.700    6.0000
61.760    8.0000
61.820   10.2000
61.880    9.2000
61.940    9.0000
62.000    7.8000
62.060    9.0000
62.120   11.4000
62.180    7.4000
62.240    8.0000
62.300    8.6000
62.360    7.8000
62.420    8.4000
62.480    8.2000
62.540    9.4000
62.600   10.0000
62.660   10.0000
62.720   10.0000
62.780   10.2000
62.840   11.6000
62.900    9.4000
62.960    9.2000
63.020    9.4000
63.080   11.6000
63.140    9.2000
63.200   10.4000
63.260    9.0000
63.320    9.6000
63.380   12.6000
63.440    9.4000
63.500   11.8000
63.560   12.0000
63.620   14.2000
63.680   14.0000
63.740   17.6000
63.800   14.2000
63.860   20.8000
63.920   21.0000
63.980   25.8000
64.040   35.2000
64.100   42.0000
64.160   57.4000
64.220   84.8000
64.280  125.0000
64.340  124.8000
64.400  100.4000
64.460   63.2000
64.520   44.2000
64.580   36.4000
64.640   26.6000
64.700   22.2000
64.760   20.4000
64.820   18.2000
64.880   14.8000
64.940   15.6000
65.000   14.0000
65.060   13.4000
65.120   11.0000
65.180   12.6000
65.240   10.4000
65.300    9.0000
65.360   10.8000
65.420    8.6000
65.480   10.0000
65.540   11.4000
65.600    8.8000
65.660   11.0000
65.720   10.6000
65.780    6.8000
65.840   10.0000
65.900    9.6000
65.960   10.2000
66.020    8.6000
66.080    8.6000
66.140    7.2000
66.200    7.6000
66.260   10.2000
66.320    9.2000
66.380    9.4000
66.440    9.0000
66.500    8.0000
66.560    7.4000
66.620    8.4000
66.680    7.2000
66.740    8.0000
66.800    6.6000
66.860    7.8000
66.920    8.6000
66.980    8.0000
67.040    7.8000
67.100    8.4000
67.160    8.6000
67.220    8.4000
67.280    7.0000
67.340    9.4000
67.400    9.2000
67.460    9.0000
67.520    9.6000
67.580    6.8000
67.640    7.4000
67.700    8.4000
67.760    7.8000
67.820    8.2000
67.880    7.4000
67.940    7.8000
68.000    7.6000
68.060   10.6000
68.120    9.8000
68.180    9.2000
68.240    5.6000
68.300    6.8000
68.360    7.4000
68.420    6.8000
68.480    8.6000
68.540    8.4000
68.600    7.6000
68.660    7.8000
68.720    9.8000
68.780    9.4000
68.840    7.4000
68.900    6.8000
68.960    6.4000
69.020    6.2000
69.080    8.6000
69.140    9.2000
69.200    9.8000
69.260    7.0000
69.320    6.2000
69.380    6.2000
69.440    6.8000
69.500    7.0000
69.560    8.2000
69.620    8.4000
69.680    5.8000
69.740    6.6000
69.800    7.6000
69.860    6.2000
69.920    6.0000
69.980    5.6000
70.040    6.4000
70.100    5.4000
70.160    4.8000
70.220    6.8000
70.280    5.8000
70.340    9.2000
70.400    9.2000
70.460    8.2000
70.520    6.6000
70.580    8.0000
70.640    6.8000
70.700    8.6000
70.760    7.8000
70.820    8.0000
70.880    7.0000
70.940    8.4000
71.000   10.2000
71.060    8.2000
71.120    7.0000
71.180    7.4000
71.240    7.6000
71.300    9.6000
71.360    7.2000
71.420    8.8000
71.480    7.4000
71.540    7.8000
71.600    7.4000
71.660    7.0000
71.720    7.6000
71.780    7.6000
71.840    6.4000
71.900    6.8000
71.960    7.6000
72.020    6.8000
72.080    6.0000
72.140    8.8000
72.200    5.6000
72.260    8.0000
72.320    8.6000
72.380    9.0000
72.440    6.4000
72.500    7.0000
72.560    6.6000
72.620    7.0000
72.680   10.2000
72.740    7.2000
72.800    7.4000
72.860    7.0000
72.920    6.8000
72.980    7.4000
73.040    7.0000
73.100    8.0000
73.160    7.8000
73.220    7.6000
73.280    6.4000
73.340    6.0000
73.400    5.2000
73.460    7.2000
73.520    8.8000
73.580    8.2000
73.640    6.4000
73.700    6.6000
73.760    7.4000
73.820    7.4000
73.880    7.2000
73.940    6.6000
74.000    5.2000
74.060    7.2000
74.120    5.8000
74.180    7.4000
74.240    8.4000
74.300    8.4000
74.360    6.0000
74.420    8.6000
74.480    8.6000
74.540    7.6000
74.600    6.8000
74.660    7.6000
74.720    8.2000
74.780    7.4000
74.840    7.0000
74.900    7.0000
74.960    9.4000
75.020    8.8000
75.080    9.6000
75.140    7.4000
75.200    8.6000
75.260    9.0000
75.320    8.2000
75.380    8.0000
75.440    9.4000
75.500    7.2000
75.560    7.4000
75.620   11.8000
75.680    9.4000
75.740    9.6000
75.800    9.6000
75.860   11.0000
75.920   10.4000
75.980   11.2000
76.040   11.2000
76.100   10.4000
76.160    9.8000
76.220   11.8000
76.280   10.0000
76.340   12.0000
76.400   11.8000
76.460   14.8000
76.520   16.6000
76.580   16.6000
76.640   17.2000
76.700   17.4000
76.760   21.0000
76.820   24.2000
76.880   31.2000
76.940   36.8000
77.000   46.0000
77.060   58.8000
77.120   85.4000
77.180  115.6000
77.240  138.0000
77.300  120.8000
77.360   96.0000
77.420   62.6000
77.480   48.0000
77.540   35.6000
77.600   29.6000
77.660   24.8000
77.720   23.6000
77.780   17.2000
77.840   19.6000
77.900   14.4000
77.960   14.2000
78.020   14.2000
78.080   12.0000
78.140   12.6000
78.200   13.0000
78.260   11.2000
78.320    7.8000
78.380    9.6000
78.440   10.4000
78.500   10.6000
78.560    9.0000
78.620   12.6000
78.680    8.6000
78.740    9.4000
78.800    9.8000
78.860   10.6000
78.920    8.6000
78.980    8.6000
79.040    9.0000
79.100    7.2000
79.160    7.8000
79.220    9.0000
79.280    8.2000
79.340    7.8000
79.400    8.4000
79.460    7.8000
79.520    8.4000
79.580    9.6000
79.640   10.6000
79.700   10.0000
79.760   10.2000
79.820   10.8000
79.880    9.6000
79.940    6.6000
80.000    9.8000
80.060    8.6000
80.120    9.0000
80.180    7.6000
80.240   10.2000
80.300    9.2000
80.360    9.8000
80.420   10.8000
80.480   11.0000
80.540    9.6000
80.600   11.0000
80.660   10.4000
80.720   10.6000
80.780    9.6000
80.840   11.8000
80.900   11.6000
80.960   12.2000
81.020   14.8000
81.080   17.4000
81.140   20.8000
81.200   23.2000
81.260   31.0000
81.320   41.4000
81.380   44.0000
81.440   39.8000
81.500   31.4000
81.560   22.2000
81.620   18.8000
81.680   16.0000
81.740   16.0000
81.800   11.6000
81.860   10.4000
81.920   11.0000
81.980   12.0000
82.040    9.8000
82.100    9.0000
82.160    9.0000
82.220    9.6000
82.280    6.8000
82.340    7.4000
82.400    9.0000
82.460    8.2000
82.520    8.4000
82.580    7.4000
82.640    6.8000
82.700    7.0000
82.760    7.8000
82.820    9.4000
82.880    8.8000
82.940    8.6000
83.000    8.6000
83.060    6.4000
83.120    6.8000
83.180    6.2000
83.240    7.2000
83.300    9.2000
83.360    7.2000
83.420    7.8000
83.480    7.8000
83.540    9.2000
83.600    8.0000
83.660    7.2000
83.720    7.2000
83.780    7.2000
83.840    6.2000
83.900    8.6000
83.960    9.8000
84.020    7.4000
84.080    8.0000
84.140    8.0000
84.200    7.2000
84.260    8.6000
84.320    8.0000
84.380    5.4000
84.440    6.4000
84.500    9.4000
84.560    8.2000
84.620    8.2000
84.680    7.0000
84.740    6.6000
84.800    7.2000
84.860    5.8000
84.920    6.2000
84.980    9.0000
85.040    8.2000
85.100    7.8000
85.160    5.6000
85.220    6.8000
85.280    6.2000
85.340    6.2000
85.400    6.8000
85.460    6.0000
85.520    7.2000
85.580    8.4000
85.640    7.6000
85.700    6.4000
85.760    6.6000
85.820    6.6000
85.880    7.2000
85.940    6.2000
86.000    6.8000
86.060    6.2000
86.120    6.4000
86.180    8.0000
86.240    8.6000
86.300    8.4000
86.360    8.0000
86.420    8.0000
86.480    5.8000
86.540    6.4000
86.600    6.6000
86.660    8.4000
86.720    7.2000
86.780    6.2000
86.840    6.8000
86.900    6.2000
86.960    6.2000
87.020    6.2000
87.080    6.8000
87.140    6.2000
87.200    5.4000
87.260    6.4000
87.320    6.4000
87.380    6.0000
87.440    6.6000
87.500    6.6000
87.560    8.8000
87.620    6.8000
87.680    5.4000
87.740    6.0000
87.800    6.2000
87.860    8.4000
87.920    8.8000
87.980    7.6000
88.040    7.4000
88.100    5.6000
88.160    6.0000
88.220    7.6000
88.280    7.2000
88.340    6.4000
88.400    7.6000
88.460    6.4000
88.520    6.4000
88.580    6.2000
88.640    7.2000
88.700    6.8000
88.760    6.2000
88.820    7.4000
88.880    6.4000
88.940    8.6000
89.000    6.6000
89.060    7.8000
89.120    7.2000
89.180    8.0000
89.240    8.0000
89.300    8.0000
89.360    8.6000
89.420    6.6000
89.480    8.2000
89.540    7.8000
89.600    7.6000
89.660    6.0000
89.720    7.2000
89.780    6.0000
89.840    7.4000
89.900    5.8000
89.960    5.4000
90.020    7.2000
90.080    6.2000
90.140    5.4000
90.200    6.6000
90.260    7.6000
90.320    6.8000
90.380    7.8000
90.440    6.6000
90.500    6.8000
90.560    7.2000
90.620    6.8000
90.680    6.6000
90.740    6.4000
90.800    5.0000
90.860    7.4000
90.920    6.8000
90.980    6.0000
91.040    5.6000
91.100    6.4000
91.160    7.2000
91.220    5.6000
91.280    7.6000
91.340    7.6000
91.400    8.0000
91.460    5.6000
91.520    9.8000
91.580    6.2000
91.640    5.2000
91.700    7.0000
91.760    5.8000
91.820    4.0000
91.880    6.8000
91.940    7.8000
92.000    6.4000
92.060    8.0000
92.120    6.8000
92.180    8.0000
92.240    5.6000
92.300    7.2000
92.360    7.0000
92.420    8.6000
92.480    7.8000
92.540    7.4000
92.600    6.4000
92.660    6.2000
92.720    7.0000
92.780    5.6000
92.840    6.4000
92.900    7.6000
92.960    7.8000
93.020    6.6000
93.080    5.4000
93.140    6.6000
93.200    7.2000
93.260    5.2000
93.320    6.0000
93.380    8.4000
93.440    6.4000
93.500    5.4000
93.560    6.2000
93.620    7.0000
93.680    5.4000
93.740    7.0000
93.800    8.8000
93.860    6.4000
93.920    8.0000
93.980    7.4000
94.040    8.0000
94.100    7.4000
94.160    6.6000
94.220    7.2000
94.280    7.8000
94.340    5.6000
94.400    5.8000
94.460    6.8000
94.520    5.6000
94.580    6.0000
94.640    7.4000
94.700    5.8000
94.760    6.4000
94.820    8.2000
94.880    8.6000
94.940    8.0000
95.000    7.0000
95.060    8.6000
95.120    8.2000
95.180    7.4000
95.240    6.6000
95.300    6.2000
95.360    7.2000
95.420    6.4000
95.480    6.8000
95.540    6.8000
95.600    7.8000
95.660    8.4000
95.720    6.6000
95.780    6.8000
95.840    5.6000
95.900    4.6000
95.960    6.4000
96.020    8.4000
96.080    7.2000
96.140    7.2000
96.200    5.0000
96.260    8.6000
96.320    5.8000
96.380    7.8000
96.440    7.8000
96.500    6.2000
96.560    9.2000
96.620    8.6000
96.680    8.4000
96.740    7.0000
96.800    8.2000
96.860    7.0000
96.920    6.6000
96.980    7.6000
97.040    8.8000
97.100    8.2000
97.160    8.8000
97.220    9.8000
97.280    9.6000
97.340   12.4000
97.400   11.2000
97.460   12.6000
97.520   16.8000
97.580   13.0000
97.640   16.8000
97.700   14.4000
97.760   18.6000
97.820   14.2000
97.880   14.6000
97.940   12.0000
98.000   14.8000
98.060   11.4000
98.120    8.4000
98.180    9.8000
98.240   10.2000
98.300    9.4000
98.360    8.2000
98.420    9.6000
98.480    9.6000
98.540    7.0000
98.600    7.8000
98.660    6.2000
98.720    6.0000
98.780    8.4000
98.840    7.4000
98.900    7.6000
98.960    6.8000
99.020    7.4000
99.080    8.2000
99.140    6.8000
99.200    6.4000
99.260    7.8000
99.320    5.8000
99.380    7.2000
99.440    8.6000
99.500    6.6000
99.560    6.2000
99.620    6.4000
99.680    7.4000
99.740    6.4000
99.800    6.0000
99.860    6.8000
99.920    7.2000
99.980    8.2000
100.040    7.0000
100.085    5.2000