File: XrayData/mixture_xrd.xyd
20.000   43.6000
20.060   43.4000
20.120   38.2000
20.180   40.0000
20.240   39.6000
20.300   41.2000
20.360   37.8000
20.420   41.0000
20.480   40.8000
20.540   40.2000
20.600   43.2000
20.660   38.8000
20.720   39.2000
20.780   43.8000
20.840   41.0000
20.900   36.8000
20.960   37.4000
21.020   38.4000
21.080   39.6000
21.140   36.4000
21.200   41.8000
21.260   37.4000
21.320   39.2000
21.380   39.2000
21.440   37.4000
21.500   40.6000
21.560   40.6000
21.620   31.4000
21.680   39.4000
21.740   39.4000
21.800   41.0000
21.860   41.2000
21.920   40.4000
21.980   39.4000
22.040   34.6000
22.100   40.6000
22.160   38.6000
22.220   38.2000
22.280   37.0000
22.340   34.6000
22.400   33.6000
22.460   34.2000
22.520   37.4000
22.580   39.4000
22.640   34.0000
22.700   38.2000
22.760   37.2000
22.820   35.2000
22.880   38.4000
22.940   32.8000
23.000   36.6000
23.060   35.2000
23.120   34.2000
23.180   36.4000
23.240   36.2000
23.300   31.8000
23.360   30.4000
23.420   31.2000
23.480   34.8000
23.540   33.4000
23.600   34.4000
23.660   32.8000
23.720   29.8000
23.780   30.4000
23.840   36.4000
23.900   35.2000
23.960   34.0000
24.020   30.4000
24.080   31.6000
24.140   33.8000
24.200   32.2000
24.260   30.0000
24.320   30.6000
24.380   28.8000
24.440   29.0000
24.500   30.2000
24.560   30.8000
24.620   32.0000
24.680   30.6000
24.740   26.4000
24.800   30.8000
24.860   31.8000
24.920   26.6000
24.980   28.0000
25.040   31.0000
25.100   32.8000
25.160   31.6000
25.220   33.8000
25.280   45.4000
25.340   56.2000
25.400   76.6000
25.460  130.6000
25.520  198.4000
25.580   65.0000
25.640   36.0000
25.700   39.4000
25.760   26.2000
25.820   27.6000
25.880   28.0000
25.940   26.2000
26.000   24.4000
26.060   28.2000
26.120   26.6000
26.180   27.4000
26.240   26.6000
26.300   27.8000
26.360   26.4000
26.420   27.2000
26.480   28.2000
26.540   25.4000
26.600   26.8000
26.660   25.6000
26.720   27.0000
26.780   28.0000
26.840   25.0000
26.900   21.2000
26.960   23.4000
27.020   24.0000
27.080   24.2000
27.140   25.0000
27.200   23.4000
27.260   25.4000
27.320   25.4000
27.380   23.2000
27.440   22.8000
27.500   22.8000
27.560   26.0000
27.620   23.4000
27.680   21.6000
27.740   21.4000
27.800   20.6000
27.860   25.0000
27.920   22.8000
27.980   22.8000
28.040   22.2000
28.100   22.4000
28.160   22.8000
28.220   24.8000
28.280   22.2000
28.340   20.0000
28.400   19.6000
28.460   23.4000
28.520   18.8000
28.580   19.8000
28.640   24.6000
28.700   17.6000
28.760   22.0000
28.820   22.8000
28.880   22.8000
28.940   23.0000
29.000   22.2000
29.060   24.4000
29.120   20.4000
29.180   21.2000
29.240   21.6000
29.300   28.6000
29.360   29.0000
29.420   24.8000
29.480   22.6000
29.540   18.6000
29.600   19.4000
29.660   20.6000
29.720   18.6000
29.780   18.8000
29.840   20.6000
29.900   20.6000
29.960   18.4000
30.020   17.6000
30.080   20.6000
30.140   17.2000
30.200   19.2000
30.260   20.2000
30.320   18.8000
30.380   19.6000
30.440   19.8000
30.500   19.0000
30.560   18.4000
30.620   19.4000
30.680   21.4000
30.740   21.0000
30.800   23.4000
30.860   18.4000
30.920   19.0000
30.980   20.6000
31.040   18.8000
31.100   21.0000
31.160   20.8000
31.220   19.4000
31.280   19.6000
31.340   15.8000
31.400   18.6000
31.460   18.4000
31.520   18.0000
31.580   16.4000
31.640   18.6000
31.700   20.2000
31.760   19.0000
31.820   20.8000
31.880   20.6000
31.940   19.6000
32.000   19.4000
32.060   17.0000
32.120   18.6000
32.180   16.0000
32.240   19.2000
32.300   18.0000
32.360   17.8000
32.420   16.4000
32.480   17.0000
32.540   19.4000
32.600   19.6000
32.660   18.0000
32.720   17.8000
32.780   17.8000
32.840   17.2000
32.900   16.8000
32.960   17.4000
33.020   18.4000
33.080   20.4000
33.140   20.2000
33.200   16.6000
33.260   15.8000
33.320   16.8000
33.380   17.2000
33.440   17.0000
33.500   16.4000
33.560   18.0000
33.620   17.0000
33.680   18.8000
33.740   15.4000
33.800   18.4000
33.860   17.8000
33.920   15.2000
33.980   15.8000
34.040   16.4000
34.100   18.6000
34.160   17.2000
34.220   16.0000
34.280   17.0000
34.340   17.4000
34.400   14.6000
34.460   20.8000
34.520   16.6000
34.580   19.2000
34.640   15.2000
34.700   18.0000
34.760   21.6000
34.820   24.0000
34.880   35.2000
34.940   65.6000
35.000  126.8000
35.060  231.2000
35.120  168.0000
35.180   42.4000
35.240   27.6000
35.300   23.0000
35.360   20.0000
35.420   19.8000
35.480   17.6000
35.540   17.8000
35.600   17.0000
35.660   17.2000
35.720   21.0000
35.780   19.0000
35.840   20.0000
35.900   18.6000
35.960   18.8000
36.020   20.8000
36.080   20.6000
36.140   19.6000
36.200   20.2000
36.260   14.8000
36.320   15.2000
36.380   18.2000
36.440   18.6000
36.500   18.8000
36.560   15.6000
36.620   18.8000
36.680   19.4000
36.740   19.8000
36.800   20.2000
36.860   19.8000
36.920   20.2000
36.980   22.0000
37.040   22.4000
37.100   22.2000
37.160   22.6000
37.220   24.0000
37.280   24.6000
37.340   21.8000
37.400   26.8000
37.460   36.6000
37.520   44.4000
37.580   61.0000
37.640  102.2000
37.700  171.8000
37.760  110.4000
37.820   99.8000
37.880  140.8000
37.940  215.4000
38.000  310.2000
38.060  347.6000
38.120  229.4000
38.180  137.8000
38.240   99.8000
38.300   64.4000
38.360   53.0000
38.420   45.4000
38.480   36.4000
38.540   32.4000
38.600   30.4000
38.660   27.6000
38.720   23.6000
38.780   25.8000
38.840   26.2000
38.900   20.8000
38.960   19.2000
39.020   21.2000
39.080   21.4000
39.140   21.0000
39.200   22.4000
39.260   20.6000
39.320   18.6000
39.380   19.4000
39.440   17.8000
39.500   20.0000
39.560   22.2000
39.620   15.2000
39.680   18.2000
39.740   20.4000
39.800   18.4000
39.860   19.0000
39.920   21.0000
39.980   15.8000
40.040   17.6000
40.100   16.6000
40.160   14.8000
40.220   17.2000
40.280   16.2000
40.340   15.8000
40.400   15.2000
40.460   16.4000
40.520   17.6000
40.580   14.4000
40.640   16.0000
40.700   15.0000
40.760   14.4000
40.820   15.4000
40.880   14.6000
40.940   15.8000
41.000   16.0000
41.060   15.0000
41.120   17.6000
41.180   17.0000
41.240   15.4000
41.300   14.0000
41.360   16.6000
41.420   13.8000
41.480   16.6000
41.540   15.2000
41.600   17.0000
41.660   17.4000
41.720   12.6000
41.780   15.2000
41.840   14.4000
41.900   17.8000
41.960   16.6000
42.020   18.6000
42.080   14.6000
42.140   14.0000
42.200   19.6000
42.260   18.8000
42.320   16.6000
42.380   15.4000
42.440   16.0000
42.500   16.0000
42.560   16.8000
42.620   14.6000
42.680   16.0000
42.740   17.6000
42.800   18.0000
42.860   19.8000
42.920   19.4000
42.980   27.0000
43.040   31.8000
43.100   51.4000
43.160   93.8000
43.220  187.4000
43.280  313.6000
43.340  111.0000
43.400   40.4000
43.460   31.4000
43.520   28.0000
43.580   24.6000
43.640   26.8000
43.700   29.2000
43.760   28.2000
43.820   34.4000
43.880   38.6000
43.940   49.6000
44.000   64.4000
44.060   65.8000
44.120   90.2000
44.180  108.8000
44.240  113.2000
44.300   88.6000
44.360   66.2000
44.420   47.4000
44.480   40.8000
44.540   31.4000
44.600   28.2000
44.660   25.4000
44.720   21.8000
44.780   23.2000
44.840   20.0000
44.900   20.0000
44.960   14.8000
45.020   15.6000
45.080   14.2000
45.140   16.2000
45.200   13.2000
45.260   14.4000
45.320   13.8000
45.380   14.0000
45.440   15.6000
45.500   16.2000
45.560   14.2000
45.620   14.6000
45.680   13.2000
45.740   12.0000
45.800   12.0000
45.860   13.4000
45.920   12.8000
45.980   11.4000
46.040   12.0000
46.100   15.0000
46.160   14.4000
46.220   11.2000
46.280   13.2000
46.340   11.0000
46.400   12.4000
46.460   10.2000
46.520   14.2000
46.580   10.4000
46.640    9.6000
46.700   10.6000
46.760   12.8000
46.820   11.0000
46.880   10.8000
46.940    9.6000
47.000   12.4000
47.060    8.4000
47.120   13.8000
47.180   11.8000
47.240    8.6000
47.300   10.0000
47.360   12.4000
47.420   11.2000
47.480   11.8000
47.540   10.8000
47.600   10.6000
47.660    8.6000
47.720    9.8000
47.780    9.4000
47.840    9.0000
47.900   11.0000
47.960   10.8000
48.020    9.4000
48.080   11.2000
48.140   11.4000
48.200    9.0000
48.260   12.2000
48.320    9.6000
48.380   13.2000
48.440   10.2000
48.500    8.8000
48.560   10.4000
48.620   11.8000
48.680    9.0000
48.740   11.2000
48.800   11.2000
48.860    9.0000
48.920    9.2000
48.980    9.0000
49.040    9.4000
49.100    9.2000
49.160    9.0000
49.220   10.0000
49.280    8.8000
49.340    9.2000
49.400   12.6000
49.460   11.0000
49.520    9.4000
49.580    8.6000
49.640    9.6000
49.700    9.6000
49.760    9.4000
49.820    9.8000
49.880   10.4000
49.940   10.8000
50.000   10.8000
50.060    9.4000
50.120    9.8000
50.180   10.4000
50.240    9.4000
50.300    8.0000
50.360    8.2000
50.420    8.0000
50.480   10.6000
50.540    8.6000
50.600    9.8000
50.660    8.4000
50.720   10.4000
50.780    9.2000
50.840    8.6000
50.900   11.2000
50.960    7.2000
51.020    9.4000
51.080    8.6000
51.140    8.4000
51.200    8.2000
51.260    9.4000
51.320    7.2000
51.380    9.2000
51.440    8.6000
51.500   10.0000
51.560    9.2000
51.620   10.8000
51.680    9.2000
51.740    9.2000
51.800   10.8000
51.860    9.4000
51.920   10.0000
51.980    9.2000
52.040   11.0000
52.100   12.4000
52.160   11.2000
52.220   13.4000
52.280   24.6000
52.340   38.4000
52.400   81.0000
52.460  119.2000
52.520   66.4000
52.580   27.4000
52.640   16.4000
52.700   12.4000
52.760   12.6000
52.820   10.8000
52.880    9.8000
52.940   11.2000
53.000    7.4000
53.060    7.2000
53.120   10.0000
53.180    8.4000
53.240    8.8000
53.300    8.4000
53.360    6.4000
53.420    9.2000
53.480   10.0000
53.540    8.4000
53.600    9.4000
53.660    9.4000
53.720    7.2000
53.780    8.8000
53.840    8.4000
53.900    7.8000
53.960    8.6000
54.020    8.4000
54.080    6.8000
54.140    7.2000
54.200    8.2000
54.260    7.6000
54.320    8.8000
54.380   10.0000
54.440    8.2000
54.500    8.4000
54.560    7.4000
54.620    8.0000
54.680    6.6000
54.740    7.6000
54.800    8.4000
54.860   10.4000
54.920    8.2000
54.980    7.4000
55.040    9.4000
55.100    8.4000
55.160    7.6000
55.220    8.2000
55.280    8.2000
55.340    6.2000
55.400    9.2000
55.460    7.4000
55.520    7.4000
55.580    7.8000
55.640    9.8000
55.700    8.6000
55.760    7.4000
55.820    7.2000
55.880    6.8000
55.940    7.0000
56.000    7.6000
56.060    6.2000
56.120    4.8000
56.180    7.6000
56.240    9.0000
56.300    8.0000
56.360    6.2000
56.420    8.8000
56.480   10.0000
56.540    7.6000
56.600    9.4000
56.660    8.8000
56.720   10.0000
56.780    8.6000
56.840   10.2000
56.900   10.2000
56.960    9.2000
57.020   12.4000
57.080   16.0000
57.140   18.4000
57.200   29.0000
57.260   47.0000
57.320   93.6000
57.380  200.4000
57.440  211.0000
57.500   62.4000
57.560   29.4000
57.620   19.8000
57.680   15.2000
57.740   13.6000
57.800    9.8000
57.860   10.8000
57.920    9.0000
57.980    7.2000
58.040   11.0000
58.100    6.6000
58.160   10.4000
58.220    8.4000
58.280    7.0000
58.340    7.0000
58.400    6.2000
58.460    7.6000
58.520    6.6000
58.580    6.4000
58.640    5.0000
58.700    7.4000
58.760    7.2000
58.820    7.2000
58.880    8.8000
58.940    7.4000
59.000    5.4000
59.060    8.6000
59.120    6.2000
59.180    8.8000
59.240    7.6000
59.300    8.4000
59.360    7.6000
59.420    9.2000
59.480    9.0000
59.540    9.6000
59.600   11.0000
59.660   13.4000
59.720    9.0000
59.780    9.8000
59.840    8.0000
59.900    6.4000
59.960    6.6000
60.020    6.6000
60.080    7.8000
60.140    7.0000
60.200   10.2000
60.260    6.6000
60.320    5.8000
60.380    7.8000
60.440    8.6000
60.500    6.2000
60.560    8.8000
60.620    6.4000
60.680    8.0000
60.740    7.2000
60.800    7.4000
60.860    9.8000
60.920   11.2000
60.980   13.0000
61.040   16.4000
61.100   16.4000
61.160   16.6000
61.220   27.2000
61.280   13.8000
61.340    9.4000
61.400    8.0000
61.460    8.6000
61.520    7.4000
61.580    7.4000
61.640    8.0000
61.700    6.2000
61.760    7.0000
61.820    6.4000
61.880    6.6000
61.940    5.8000
62.000    7.0000
62.060    7.6000
62.120    6.6000
62.180    7.8000
62.240    7.2000
62.300    5.2000
62.360    7.2000
62.420    6.2000
62.480    6.4000
62.540    9.0000
62.600    6.2000
62.660    8.0000
62.720    7.4000
62.780    6.6000
62.840    7.6000
62.900    8.4000
62.960    8.4000
63.020    6.8000
63.080    8.2000
63.140    9.0000
63.200    8.2000
63.260    7.8000
63.320    8.0000
63.380    9.2000
63.440    7.6000
63.500    9.6000
63.560    9.6000
63.620   10.2000
63.680   13.4000
63.740   10.4000
63.800   11.6000
63.860   12.8000
63.920   11.2000
63.980   17.6000
64.040   21.6000
64.100   25.6000
64.160   32.0000
64.220   44.0000
64.280   67.0000
64.340   82.0000
64.400   77.0000
64.460   56.0000
64.520   42.2000
64.580   32.2000
64.640   22.6000
64.700   16.8000
64.760   16.6000
64.820   13.2000
64.880   14.2000
64.940   12.4000
65.000   14.2000
65.060   11.2000
65.120    9.8000
65.180    9.4000
65.240    9.2000
65.300   11.2000
65.360    9.2000
65.420    7.8000
65.480   10.8000
65.540    9.4000
65.600    8.2000
65.660    9.2000
65.720    7.8000
65.780    9.6000
65.840    8.0000
65.900    7.0000
65.960    7.6000
66.020   10.2000
66.080   11.2000
66.140   13.0000
66.200   13.4000
66.260   24.0000
66.320   40.6000
66.380   74.6000
66.440   92.4000
66.500   36.2000
66.560   21.2000
66.620   13.6000
66.680   13.0000
66.740   13.4000
66.800   11.4000
66.860   11.2000
66.920    9.2000
66.980    9.2000
67.040    7.6000
67.100   10.2000
67.160    7.8000
67.220    6.2000
67.280    9.0000
67.340    8.6000
67.400   10.2000
67.460    8.6000
67.520    7.0000
67.580    9.4000
67.640    7.6000
67.700   10.2000
67.760    8.8000
67.820   13.0000
67.880   18.2000
67.940   27.2000
68.000   62.4000
68.060   99.0000
68.120  149.8000
68.180   62.0000
68.240   26.4000
68.300   18.0000
68.360   14.0000
68.420   11.4000
68.480    8.8000
68.540    8.6000
68.600    7.4000
68.660    8.6000
68.720    7.2000
68.780    7.4000
68.840    6.2000
68.900    7.0000
68.960    4.2000
69.020    5.8000
69.080    8.4000
69.140    5.2000
69.200    7.0000
69.260    6.8000
69.320    7.0000
69.380    5.8000
69.440    6.2000
69.500    6.6000
69.560    6.2000
69.620    6.0000
69.680    6.8000
69.740    7.0000
69.800    7.2000
69.860    6.8000
69.920    7.6000
69.980    6.4000
70.040    7.6000
70.100    8.8000
70.160    7.2000
70.220    7.6000
70.280   10.8000
70.340    7.8000
70.400    7.2000
70.460    6.6000
70.520    5.2000
70.580    7.0000
70.640    7.4000
70.700    8.0000
70.760    7.4000
70.820    6.4000
70.880    6.0000
70.940    5.8000
71.000    6.8000
71.060    7.0000
71.120    6.0000
71.180    5.8000
71.240    4.8000
71.300    7.2000
71.360    5.6000
71.420    7.8000
71.480    7.8000
71.540    5.6000
71.600    6.0000
71.660    6.0000
71.720    8.6000
71.780    5.6000
71.840    6.8000
71.900    5.2000
71.960    6.0000
72.020    7.6000
72.080    8.4000
72.140    5.2000
72.200    6.8000
72.260    5.2000
72.320    6.0000
72.380    5.8000
72.440    7.4000
72.500    7.0000
72.560    5.4000
72.620    6.8000
72.680    8.0000
72.740    4.2000
72.800    7.0000
72.860    5.8000
72.920    6.4000
72.980    6.4000
73.040    6.4000
73.100    5.8000
73.160    6.8000
73.220    5.6000
73.280    5.6000
73.340    7.2000
73.400    7.8000
73.460    7.2000
73.520    7.0000
73.580    5.6000
73.640    6.0000
73.700    7.2000
73.760    5.2000
73.820    6.6000
73.880    4.8000
73.940    8.0000
74.000    7.4000
74.060    6.2000
74.120    7.8000
74.180    9.0000
74.240    8.0000
74.300    6.6000
74.360    6.2000
74.420    6.6000
74.480    6.8000
74.540    6.0000
74.600    6.4000
74.660    6.8000
74.720    7.0000
74.780    6.6000
74.840    6.2000
74.900    8.0000
74.960    9.2000
75.020    7.4000
75.080    7.0000
75.140    6.8000
75.200    8.2000
75.260    7.4000
75.320    7.0000
75.380    7.6000
75.440    7.0000
75.500    8.4000
75.560    7.6000
75.620    5.8000
75.680    7.6000
75.740    5.6000
75.800    8.0000
75.860    7.6000
75.920   10.4000
75.980    7.2000
76.040    7.6000
76.100    7.8000
76.160    7.8000
76.220   11.2000
76.280   10.4000
76.340   10.6000
76.400    9.0000
76.460   10.8000
76.520   14.4000
76.580   15.8000
76.640   19.2000
76.700   28.4000
76.760   46.6000
76.820   42.6000
76.880   27.0000
76.940   31.4000
77.000   31.6000
77.060   43.8000
77.120   57.0000
77.180   76.8000
77.240   78.8000
77.300   93.0000
77.360   75.8000
77.420   54.0000
77.480   46.8000
77.540   31.4000
77.600   22.4000
77.660   19.2000
77.720   17.2000
77.780   17.8000
77.840   11.2000
77.900   12.4000
77.960   11.6000
78.020   12.4000
78.080   10.0000
78.140    7.6000
78.200   10.4000
78.260    8.6000
78.320    7.0000
78.380    9.8000
78.440    8.4000
78.500    8.6000
78.560    6.6000
78.620    6.2000
78.680    8.0000
78.740    6.2000
78.800    6.4000
78.860    8.2000
78.920    7.8000
78.980    7.4000
79.040    7.0000
79.100    6.2000
79.160    8.2000
79.220    5.4000
79.280    7.0000
79.340    6.0000
79.400    7.4000
79.460    7.0000
79.520    8.2000
79.580    6.2000
79.640    7.8000
79.700    6.0000
79.760    7.4000
79.820    6.0000
79.880    7.6000
79.940    6.0000
80.000    7.0000
80.060    8.0000
80.120    9.4000
80.180    7.6000
80.240    7.2000
80.300   10.0000
80.360    9.6000
80.420    9.8000
80.480   13.0000
80.540   16.8000
80.600   19.2000
80.660   13.4000
80.720   11.0000
80.780   10.8000
80.840    8.4000
80.900    8.8000
80.960    9.2000
81.020    9.2000
81.080    9.8000
81.140   11.8000
81.200   13.8000
81.260   15.4000
81.320   20.8000
81.380   26.2000
81.440   28.0000
81.500   26.4000
81.560   17.6000
81.620   18.2000
81.680   12.2000
81.740   10.2000
81.800    9.4000
81.860   10.0000
81.920    9.2000
81.980    6.8000
82.040    9.0000
82.100    7.0000
82.160    7.0000
82.220    8.2000
82.280    5.2000
82.340    7.4000
82.400    7.8000
82.460    7.0000
82.520    5.0000
82.580    7.0000
82.640    6.4000
82.700    8.0000
82.760    7.4000
82.820    6.6000
82.880    5.4000
82.940    7.0000
83.000    5.4000
83.060    6.6000
83.120    8.4000
83.180    8.2000
83.240    7.4000
83.300    6.2000
83.360    7.4000
83.420    6.8000
83.480    6.8000
83.540    6.8000
83.600    7.0000
83.660    4.2000
83.720    5.0000
83.780    6.0000
83.840    7.0000
83.900    6.8000
83.960    5.8000
84.020    7.0000
84.080    8.8000
84.140   12.2000
84.200   16.2000
84.260   17.2000
84.320    9.4000
84.380    7.6000
84.440    7.0000
84.500    8.4000
84.560    6.2000
84.620    4.8000
84.680    6.2000
84.740    6.4000
84.800    5.4000
84.860    7.2000
84.920    7.0000
84.980    6.4000
85.040    7.4000
85.100    5.8000
85.160    6.4000
85.220    4.2000
85.280    6.8000
85.340    6.6000
85.400    5.8000
85.460    6.8000
85.520    4.6000
85.580    5.4000
85.640    6.8000
85.700    6.4000
85.760    6.0000
85.820    5.4000
85.880    6.6000
85.940    6.6000
86.000    9.2000
86.060    6.0000
86.120    8.2000
86.180   13.0000
86.240   15.6000
86.300   11.2000
86.360   12.0000
86.420   11.0000
86.480    9.0000
86.540    5.2000
86.600    8.4000
86.660    7.0000
86.720    5.6000
86.780    5.8000
86.840    8.2000
86.900    6.2000
86.960    6.8000
87.020    6.6000
87.080    7.4000
87.140    5.0000
87.200    5.2000
87.260    5.4000
87.320    7.6000
87.380    6.6000
87.440    5.4000
87.500    5.0000
87.560    5.2000
87.620    5.4000
87.680    6.2000
87.740    5.8000
87.800    5.8000
87.860    6.2000
87.920    7.0000
87.980    6.4000
88.040    6.4000
88.100    6.4000
88.160    5.4000
88.220    7.6000
88.280    6.4000
88.340    5.8000
88.400    7.8000
88.460    7.2000
88.520    5.4000
88.580    8.2000
88.640    8.0000
88.700   10.8000
88.760    8.2000
88.820   13.6000
88.880   19.4000
88.940   16.6000
89.000   12.0000
89.060    7.8000
89.120    7.2000
89.180    6.2000
89.240    7.4000
89.300    4.8000
89.360    6.0000
89.420    6.2000
89.480    5.2000
89.540    5.4000
89.600    6.8000
89.660    6.0000
89.720    4.4000
89.780    4.8000
89.840    6.0000
89.900    6.2000
89.960    5.4000
90.020    6.6000
90.080    6.4000
90.140    5.8000
90.200    5.8000
90.260    7.2000
90.320    6.4000
90.380    5.8000
90.440    7.2000
90.500    7.6000
90.560    9.6000
90.620    9.6000
90.680    9.6000
90.740    6.2000
90.800    8.2000
90.860   10.0000
90.920   11.4000
90.980   15.0000
91.040   16.2000
91.100   20.2000
91.160   15.2000
91.220   10.4000
91.280    8.2000
91.340    7.2000
91.400    5.4000
91.460    5.2000
91.520    6.4000
91.580    5.2000
91.640    5.0000
91.700    5.8000
91.760    5.4000
91.820    4.8000
91.880    6.0000
91.940    5.2000
92.000    6.2000
92.060    6.8000
92.120    5.0000
92.180    6.2000
92.240    6.0000
92.300    5.8000
92.360    3.8000
92.420    6.0000
92.480    6.2000
92.540    6.0000
92.600    4.8000
92.660    6.0000
92.720    5.6000
92.780    4.4000
92.840    4.2000
92.900    5.0000
92.960    6.0000
93.020    8.0000
93.080    5.2000
93.140    5.0000
93.200    5.4000
93.260    6.4000
93.320    6.6000
93.380    6.4000
93.440    4.2000
93.500    6.8000
93.560    7.0000
93.620    6.4000
93.680    6.6000
93.740    5.8000
93.800    7.4000
93.860    6.0000
93.920    5.4000
93.980    5.0000
94.040    5.0000
94.100    6.2000
94.160    5.6000
94.220    7.0000
94.280    5.4000
94.340    5.8000
94.400    6.0000
94.460    7.2000
94.520    5.0000
94.580    9.2000
94.640    8.2000
94.700    9.4000
94.760    8.6000
94.820    5.8000
94.880   10.0000
94.940   12.8000
95.000   16.8000
95.060   27.2000
95.120   38.4000
95.180   36.4000
95.240   16.8000
95.300   11.8000
95.360    9.0000
95.420    8.0000
95.480    7.2000
95.540    8.4000
95.600    6.4000
95.660    7.2000
95.720    6.0000
95.780    6.8000
95.840    6.8000
95.900    4.2000
95.960    6.0000
96.020    4.2000
96.080    7.0000
96.140    6.4000
96.200    7.0000
96.260    5.8000
96.320    4.4000
96.380    5.6000
96.440    5.0000
96.500    7.2000
96.560    6.0000
96.620    7.4000
96.680    6.6000
96.740    6.4000
96.800    7.6000
96.860    6.4000
96.920    6.6000
96.980    7.6000
97.040    7.0000
97.100    6.6000
97.160    7.8000
97.220    6.2000
97.280    9.0000
97.340    8.0000
97.400    9.4000
97.460    8.0000
97.520    7.4000
97.580    8.4000
97.640   10.0000
97.700   11.6000
97.760   10.8000
97.820   11.0000
97.880   11.6000
97.940    8.6000
98.000   10.6000
98.060    9.4000
98.120    9.2000
98.180   10.8000
98.240   10.0000
98.300    9.4000
98.360    8.8000
98.420    8.2000
98.480    8.4000
98.540    8.0000
98.600    8.4000
98.660    7.6000
98.720    7.6000
98.780    7.4000
98.840    6.8000
98.900    7.0000
98.960    4.8000
99.020    5.2000
99.080    8.2000
99.140    5.8000
99.200    6.8000
99.260    6.6000
99.320    6.2000
99.380    8.0000
99.440    6.4000
99.500    5.4000
99.560    6.0000
99.620    7.4000
99.680    6.4000
99.740    5.4000
99.800    7.0000
99.860    7.2000
99.920    6.2000
99.980    6.6000
100.040    6.4000
100.085    6.0000